#                                                                                
# Lorentzian broadening with gamma= 0.050000  [eV]
# Im(epsilon) shifted by   0.0000   [eV]
# No intraband contributions added
#
# Energy [eV]    eloss_xx      eloss_zz
#
   0.013610  0.463142E-03  0.477489E-03
   0.040820  0.472740E-03  0.483401E-03
   0.068030  0.482521E-03  0.489388E-03
   0.095240  0.492493E-03  0.495452E-03
   0.122450  0.502665E-03  0.501596E-03
   0.149660  0.513045E-03  0.507821E-03
   0.176870  0.523642E-03  0.514132E-03
   0.204090  0.534471E-03  0.520532E-03
   0.231300  0.545534E-03  0.527020E-03
   0.258510  0.556848E-03  0.533601E-03
   0.285720  0.568423E-03  0.540278E-03
   0.312930  0.580275E-03  0.547055E-03
   0.340140  0.592417E-03  0.553934E-03
   0.367350  0.604865E-03  0.560920E-03
   0.394570  0.617641E-03  0.568018E-03
   0.421780  0.630755E-03  0.575228E-03
   0.448990  0.644230E-03  0.582555E-03
   0.476200  0.658089E-03  0.590006E-03
   0.503410  0.672356E-03  0.597583E-03
   0.530620  0.687059E-03  0.605293E-03
   0.557830  0.702226E-03  0.613139E-03
   0.585040  0.717889E-03  0.621129E-03
   0.612260  0.734092E-03  0.629269E-03
   0.639470  0.750861E-03  0.637562E-03
   0.666680  0.768249E-03  0.646015E-03
   0.693890  0.786305E-03  0.654637E-03
   0.721100  0.805086E-03  0.663434E-03
   0.748310  0.824656E-03  0.672414E-03
   0.775520  0.845088E-03  0.681587E-03
   0.802740  0.866475E-03  0.690963E-03
   0.829950  0.888896E-03  0.700546E-03
   0.857160  0.912470E-03  0.710351E-03
   0.884370  0.937327E-03  0.720387E-03
   0.911580  0.963617E-03  0.730666E-03
   0.938790  0.991521E-03  0.741202E-03
   0.966000  0.102125E-02  0.752009E-03
   0.993220  0.105307E-02  0.763106E-03
   1.020430  0.108728E-02  0.774500E-03
   1.047640  0.112425E-02  0.786213E-03
   1.074850  0.116447E-02  0.798265E-03
   1.102060  0.120852E-02  0.810676E-03
   1.129270  0.125715E-02  0.823470E-03
   1.156480  0.131136E-02  0.836672E-03
   1.183700  0.137245E-02  0.850315E-03
   1.210910  0.144214E-02  0.864419E-03
   1.238120  0.152286E-02  0.879023E-03
   1.265330  0.161809E-02  0.894167E-03
   1.292540  0.173296E-02  0.909894E-03
   1.319750  0.187542E-02  0.926252E-03
   1.346960  0.205843E-02  0.943300E-03
   1.374180  0.230459E-02  0.961113E-03
   1.401390  0.265540E-02  0.979763E-03
   1.428600  0.319084E-02  0.999365E-03
   1.455810  0.404043E-02  0.102007E-02
   1.483020  0.526711E-02  0.104210E-02
   1.510230  0.671865E-02  0.106567E-02
   1.537440  0.826373E-02  0.109098E-02
   1.564660  0.985158E-02  0.111814E-02
   1.591870  0.112921E-01  0.114715E-02
   1.619080  0.123916E-01  0.117807E-02
   1.646290  0.131674E-01  0.121103E-02
   1.673500  0.137022E-01  0.124628E-02
   1.700710  0.140521E-01  0.128407E-02
   1.727920  0.142676E-01  0.132469E-02
   1.755130  0.143796E-01  0.136864E-02
   1.782350  0.144055E-01  0.141662E-02
   1.809560  0.143636E-01  0.146943E-02
   1.836770  0.142672E-01  0.152819E-02
   1.863980  0.141242E-01  0.159464E-02
   1.891190  0.139435E-01  0.167174E-02
   1.918400  0.137332E-01  0.176453E-02
   1.945610  0.135011E-01  0.187994E-02
   1.972830  0.132592E-01  0.202104E-02
   2.000040  0.130207E-01  0.218282E-02
   2.027250  0.128032E-01  0.236279E-02
   2.054460  0.126479E-01  0.256485E-02
   2.081670  0.126436E-01  0.279769E-02
   2.108880  0.128874E-01  0.307319E-02
   2.136090  0.133565E-01  0.340559E-02
   2.163310  0.139183E-01  0.382157E-02
   2.190520  0.144069E-01  0.435986E-02
   2.217730  0.148179E-01  0.507478E-02
   2.244940  0.152132E-01  0.605271E-02
   2.272150  0.156214E-01  0.743296E-02
   2.299360  0.160962E-01  0.937412E-02
   2.326570  0.167036E-01  0.117812E-01
   2.353790  0.174208E-01  0.140338E-01
   2.381000  0.181348E-01  0.157108E-01
   2.408210  0.187690E-01  0.169653E-01
   2.435420  0.193178E-01  0.180826E-01
   2.462630  0.198021E-01  0.191250E-01
   2.489840  0.202755E-01  0.201202E-01
   2.517050  0.208401E-01  0.211048E-01
   2.544270  0.216005E-01  0.221205E-01
   2.571480  0.226732E-01  0.232147E-01
   2.598690  0.241103E-01  0.244371E-01
   2.625900  0.258429E-01  0.257479E-01
   2.653110  0.277661E-01  0.269416E-01
   2.680320  0.296153E-01  0.278542E-01
   2.707530  0.311946E-01  0.285148E-01
   2.734750  0.324630E-01  0.289775E-01
   2.761960  0.334806E-01  0.292324E-01
   2.789170  0.343396E-01  0.292918E-01
   2.816380  0.350685E-01  0.292458E-01
   2.843590  0.357051E-01  0.291455E-01
   2.870800  0.363389E-01  0.290005E-01
   2.898010  0.371113E-01  0.288310E-01
   2.925220  0.384272E-01  0.286674E-01
   2.952440  0.411841E-01  0.285479E-01
   2.979650  0.461915E-01  0.285443E-01
   3.006860  0.527541E-01  0.287977E-01
   3.034070  0.591429E-01  0.295863E-01
   3.061280  0.641601E-01  0.311493E-01
   3.088490  0.675998E-01  0.331937E-01
   3.115700  0.696933E-01  0.351893E-01
   3.142920  0.712317E-01  0.366422E-01
   3.170130  0.721597E-01  0.374506E-01
   3.197340  0.723201E-01  0.380598E-01
   3.224550  0.723480E-01  0.387672E-01
   3.251760  0.731879E-01  0.388843E-01
   3.278970  0.750259E-01  0.377164E-01
   3.306180  0.775435E-01  0.357787E-01
   3.333400  0.803722E-01  0.338673E-01
   3.360610  0.829979E-01  0.323730E-01
   3.387820  0.848264E-01  0.313732E-01
   3.415030  0.855304E-01  0.307850E-01
   3.442240  0.851129E-01  0.305063E-01
   3.469450  0.839787E-01  0.304415E-01
   3.496660  0.827289E-01  0.305317E-01
   3.523880  0.815572E-01  0.307751E-01
   3.551090  0.801828E-01  0.312021E-01
   3.578300  0.780454E-01  0.317399E-01
   3.605510  0.750208E-01  0.319972E-01
   3.632720  0.717211E-01  0.317247E-01
   3.659930  0.688485E-01  0.311940E-01
   3.687140  0.666386E-01  0.306733E-01
   3.714360  0.649954E-01  0.302929E-01
   3.741570  0.640003E-01  0.301524E-01
   3.768780  0.638786E-01  0.303868E-01
   3.795990  0.645271E-01  0.311289E-01
   3.823200  0.655194E-01  0.322012E-01
   3.850410  0.665891E-01  0.330827E-01
   3.877620  0.676314E-01  0.335462E-01
   3.904840  0.686676E-01  0.337952E-01
   3.932050  0.697555E-01  0.340268E-01
   3.959260  0.708820E-01  0.342961E-01
   3.986470  0.718884E-01  0.345822E-01
   4.013680  0.725969E-01  0.347272E-01
   4.040890  0.728889E-01  0.344767E-01
   4.068100  0.727170E-01  0.338705E-01
   4.095310  0.721377E-01  0.330305E-01
   4.122530  0.712086E-01  0.319393E-01
   4.149740  0.699601E-01  0.305868E-01
   4.176950  0.684129E-01  0.290232E-01
   4.204160  0.665810E-01  0.273738E-01
   4.231370  0.644461E-01  0.256966E-01
   4.258580  0.619885E-01  0.240676E-01
   4.285790  0.595921E-01  0.226101E-01
   4.313010  0.582778E-01  0.214107E-01
   4.340220  0.586644E-01  0.204948E-01
   4.367430  0.602435E-01  0.198073E-01
   4.394640  0.625214E-01  0.192580E-01
   4.421850  0.648551E-01  0.189253E-01
   4.449060  0.671089E-01  0.189124E-01
   4.476270  0.693268E-01  0.192733E-01
   4.503490  0.713481E-01  0.199082E-01
   4.530700  0.730385E-01  0.207857E-01
   4.557910  0.745193E-01  0.218700E-01
   4.585120  0.759797E-01  0.231184E-01
   4.612330  0.773420E-01  0.246948E-01
   4.639540  0.784402E-01  0.267284E-01
   4.666750  0.792514E-01  0.289034E-01
   4.693970  0.797993E-01  0.308369E-01
   4.721180  0.800564E-01  0.324891E-01
   4.748390  0.802456E-01  0.339108E-01
   4.775600  0.805969E-01  0.352408E-01
   4.802810  0.810970E-01  0.367060E-01
   4.830020  0.817215E-01  0.383927E-01
   4.857230  0.824766E-01  0.402405E-01
   4.884450  0.831960E-01  0.420819E-01
   4.911660  0.838706E-01  0.437562E-01
   4.938870  0.846717E-01  0.451488E-01
   4.966080  0.855157E-01  0.462512E-01
   4.993290  0.861510E-01  0.471235E-01
   5.020500  0.866878E-01  0.478097E-01
   5.047710  0.873643E-01  0.482799E-01
   5.074930  0.880924E-01  0.484900E-01
   5.102140  0.886384E-01  0.484706E-01
   5.129350  0.888289E-01  0.484840E-01
   5.156560  0.886947E-01  0.491374E-01
   5.183770  0.883638E-01  0.509019E-01
   5.210980  0.879143E-01  0.534051E-01
   5.238190  0.873507E-01  0.557539E-01
   5.265400  0.870116E-01  0.574710E-01
   5.292620  0.878756E-01  0.582949E-01
   5.319830  0.900745E-01  0.579488E-01
   5.347040  0.929833E-01  0.565691E-01
   5.374250  0.963146E-01  0.550447E-01
   5.401460  0.999594E-01  0.543284E-01
   5.428670  0.104152E+00  0.541120E-01
   5.455880  0.108329E+00  0.533648E-01
   5.483100  0.110755E+00  0.523042E-01
   5.510310  0.109985E+00  0.516485E-01
   5.537520  0.106696E+00  0.515207E-01
   5.564730  0.103851E+00  0.518554E-01
   5.591940  0.102738E+00  0.525221E-01
   5.619150  0.102462E+00  0.534571E-01
   5.646360  0.102173E+00  0.545987E-01
   5.673580  0.101422E+00  0.558922E-01
   5.700790  0.100277E+00  0.574945E-01
   5.728000  0.988980E-01  0.596259E-01
   5.755210  0.974335E-01  0.621692E-01
   5.782420  0.959959E-01  0.648512E-01
   5.809630  0.946904E-01  0.675524E-01
   5.836840  0.937224E-01  0.702690E-01
   5.864060  0.933465E-01  0.731210E-01
   5.891270  0.937814E-01  0.762339E-01
   5.918480  0.948408E-01  0.795199E-01
   5.945690  0.961764E-01  0.827130E-01
   5.972900  0.979394E-01  0.856888E-01
   6.000110  0.100279E+00  0.884183E-01
   6.027320  0.102674E+00  0.908404E-01
   6.054540  0.104175E+00  0.930066E-01
   6.081750  0.104507E+00  0.952119E-01
   6.108960  0.104687E+00  0.979377E-01
   6.136170  0.105728E+00  0.101439E+00
   6.163380  0.107721E+00  0.105658E+00
   6.190590  0.110434E+00  0.110548E+00
   6.217800  0.113639E+00  0.116040E+00
   6.245020  0.117038E+00  0.121945E+00
   6.272230  0.120308E+00  0.127997E+00
   6.299440  0.123523E+00  0.133972E+00
   6.326650  0.126996E+00  0.139810E+00
   6.353860  0.131033E+00  0.145708E+00
   6.381070  0.135587E+00  0.151525E+00
   6.408280  0.140021E+00  0.156733E+00
   6.435490  0.143926E+00  0.161025E+00
   6.462710  0.147428E+00  0.164289E+00
   6.489920  0.150675E+00  0.166376E+00
   6.517130  0.153707E+00  0.167236E+00
   6.544340  0.156326E+00  0.166995E+00
   6.571550  0.158259E+00  0.166255E+00
   6.598760  0.159378E+00  0.166146E+00
   6.625970  0.159611E+00  0.166603E+00
   6.653190  0.159104E+00  0.167130E+00
   6.680400  0.158799E+00  0.167766E+00
   6.707610  0.159514E+00  0.168575E+00
   6.734820  0.161275E+00  0.169366E+00
   6.762030  0.163882E+00  0.169712E+00
   6.789240  0.167073E+00  0.169561E+00
   6.816450  0.171035E+00  0.169900E+00
   6.843670  0.175942E+00  0.171109E+00
   6.870880  0.180717E+00  0.172320E+00
   6.898090  0.183961E+00  0.173236E+00
   6.925300  0.185715E+00  0.173913E+00
   6.952510  0.186582E+00  0.173981E+00
   6.979720  0.186645E+00  0.172861E+00
   7.006930  0.185540E+00  0.170238E+00
   7.034150  0.184337E+00  0.166397E+00
   7.061360  0.184222E+00  0.162024E+00
   7.088570  0.185851E+00  0.157780E+00
   7.115780  0.188921E+00  0.154245E+00
   7.142990  0.192178E+00  0.151758E+00
   7.170200  0.194011E+00  0.150129E+00
   7.197410  0.193304E+00  0.149294E+00
   7.224630  0.190603E+00  0.149600E+00
   7.251840  0.186758E+00  0.151536E+00
   7.279050  0.182776E+00  0.155759E+00
   7.306260  0.179511E+00  0.161942E+00
   7.333470  0.176880E+00  0.168806E+00
   7.360680  0.174432E+00  0.175994E+00
   7.387890  0.171948E+00  0.184518E+00
   7.415110  0.168955E+00  0.193790E+00
   7.442320  0.165199E+00  0.202231E+00
   7.469530  0.161334E+00  0.207874E+00
   7.496740  0.157740E+00  0.208289E+00
   7.523950  0.154632E+00  0.203541E+00
   7.551160  0.153968E+00  0.197158E+00
   7.578370  0.157164E+00  0.191663E+00
   7.605580  0.164060E+00  0.187150E+00
   7.632800  0.174290E+00  0.183551E+00
   7.660010  0.186839E+00  0.181179E+00
   7.687220  0.200350E+00  0.180067E+00
   7.714430  0.214416E+00  0.179937E+00
   7.741640  0.229013E+00  0.180293E+00
   7.768850  0.243915E+00  0.180495E+00
   7.796060  0.258586E+00  0.180209E+00
   7.823280  0.272039E+00  0.179568E+00
   7.850490  0.283428E+00  0.178756E+00
   7.877700  0.292714E+00  0.177858E+00
   7.904910  0.300383E+00  0.176924E+00
   7.932120  0.307648E+00  0.175971E+00
   7.959330  0.316529E+00  0.174904E+00
   7.986540  0.327964E+00  0.173592E+00
   8.013760  0.341323E+00  0.172324E+00
   8.040970  0.356391E+00  0.171277E+00
   8.068180  0.373542E+00  0.170105E+00
   8.095390  0.393211E+00  0.168765E+00
   8.122600  0.415899E+00  0.167757E+00
   8.149810  0.441492E+00  0.168053E+00
   8.177020  0.469742E+00  0.169606E+00
   8.204240  0.500896E+00  0.170824E+00
   8.231450  0.535686E+00  0.171174E+00
   8.258660  0.575325E+00  0.171534E+00
   8.285870  0.620357E+00  0.172040E+00
   8.313080  0.668102E+00  0.171866E+00
   8.340290  0.711869E+00  0.171213E+00
   8.367500  0.745667E+00  0.170560E+00
   8.394720  0.765785E+00  0.169815E+00
   8.421930  0.771075E+00  0.168941E+00
   8.449140  0.762493E+00  0.168208E+00
   8.476350  0.741273E+00  0.167749E+00
   8.503560  0.709139E+00  0.167428E+00
   8.530770  0.667959E+00  0.167495E+00
   8.557980  0.619170E+00  0.168320E+00
   8.585200  0.564764E+00  0.169327E+00
   8.612410  0.508126E+00  0.169494E+00
   8.639620  0.454623E+00  0.167855E+00
   8.666830  0.410822E+00  0.163566E+00
   8.694040  0.378227E+00  0.157434E+00
   8.721250  0.353686E+00  0.151693E+00
   8.748460  0.334601E+00  0.146762E+00
   8.775670  0.319669E+00  0.142234E+00
   8.802890  0.308085E+00  0.137800E+00
   8.830100  0.299874E+00  0.133048E+00
   8.857310  0.295627E+00  0.128092E+00
   8.884520  0.294200E+00  0.123767E+00
   8.911730  0.293332E+00  0.120797E+00
   8.938940  0.292117E+00  0.118980E+00
   8.966150  0.290553E+00  0.117669E+00
   8.993370  0.288683E+00  0.116544E+00
   9.020580  0.286673E+00  0.115674E+00
   9.047790  0.284607E+00  0.115346E+00
   9.075000  0.282374E+00  0.115866E+00
   9.102210  0.280164E+00  0.117414E+00
   9.129420  0.277958E+00  0.119702E+00
   9.156630  0.275321E+00  0.122221E+00
   9.183850  0.271937E+00  0.124613E+00
   9.211060  0.267887E+00  0.126627E+00
   9.238270  0.263456E+00  0.128120E+00
   9.265480  0.259057E+00  0.129156E+00
   9.292690  0.255095E+00  0.129758E+00
   9.319900  0.251529E+00  0.129742E+00
   9.347110  0.248085E+00  0.128914E+00
   9.374330  0.244738E+00  0.127672E+00
   9.401540  0.241683E+00  0.126492E+00
   9.428750  0.238768E+00  0.125515E+00
   9.455960  0.235526E+00  0.124464E+00
   9.483170  0.232185E+00  0.122919E+00
   9.510380  0.229312E+00  0.121322E+00
   9.537590  0.226895E+00  0.120804E+00
   9.564810  0.224269E+00  0.121471E+00
   9.592020  0.221012E+00  0.122331E+00
   9.619230  0.217519E+00  0.122654E+00
   9.646440  0.214353E+00  0.122408E+00
   9.673650  0.211608E+00  0.122102E+00
   9.700860  0.209133E+00  0.122201E+00
   9.728070  0.206740E+00  0.122848E+00
   9.755290  0.204244E+00  0.124028E+00
   9.782500  0.201703E+00  0.125590E+00
   9.809710  0.198989E+00  0.127243E+00
   9.836920  0.195805E+00  0.128615E+00
   9.864130  0.192673E+00  0.129399E+00
   9.891340  0.190702E+00  0.129517E+00
   9.918550  0.190145E+00  0.129257E+00
   9.945760  0.190190E+00  0.129153E+00
   9.972980  0.190051E+00  0.129184E+00
  10.000190  0.189422E+00  0.129121E+00
  10.027400  0.188158E+00  0.129137E+00
  10.054610  0.186144E+00  0.129479E+00
  10.081820  0.183599E+00  0.130127E+00
  10.109030  0.181348E+00  0.130885E+00
  10.136240  0.180196E+00  0.131546E+00
  10.163460  0.180228E+00  0.131791E+00
  10.190670  0.181002E+00  0.131526E+00
  10.217880  0.182393E+00  0.131790E+00
  10.245090  0.184292E+00  0.133420E+00
  10.272300  0.186698E+00  0.135964E+00
  10.299510  0.189925E+00  0.138504E+00
  10.326720  0.194050E+00  0.140567E+00
  10.353940  0.198349E+00  0.142486E+00
  10.381150  0.202209E+00  0.144632E+00
  10.408360  0.205632E+00  0.147339E+00
  10.435570  0.208800E+00  0.150873E+00
  10.462780  0.211519E+00  0.154795E+00
  10.489990  0.213391E+00  0.158587E+00
  10.517200  0.214155E+00  0.161749E+00
  10.544420  0.214156E+00  0.163813E+00
  10.571630  0.214555E+00  0.165510E+00
  10.598840  0.216166E+00  0.167283E+00
  10.626050  0.218520E+00  0.169471E+00
  10.653260  0.220521E+00  0.172172E+00
  10.680470  0.221386E+00  0.174403E+00
  10.707680  0.221343E+00  0.175722E+00
  10.734900  0.220794E+00  0.177030E+00
  10.762110  0.219701E+00  0.179292E+00
  10.789320  0.217470E+00  0.182682E+00
  10.816530  0.214528E+00  0.186352E+00
  10.843740  0.213050E+00  0.189394E+00
  10.870950  0.213614E+00  0.191398E+00
  10.898160  0.215703E+00  0.192236E+00
  10.925380  0.218590E+00  0.192261E+00
  10.952590  0.221673E+00  0.192453E+00
  10.979800  0.224704E+00  0.193488E+00
  11.007010  0.227679E+00  0.195210E+00
  11.034220  0.230499E+00  0.197482E+00
  11.061430  0.232894E+00  0.200357E+00
  11.088640  0.234898E+00  0.203837E+00
  11.115850  0.236357E+00  0.207531E+00
  11.143070  0.236512E+00  0.210487E+00
  11.170280  0.234620E+00  0.211815E+00
  11.197490  0.231196E+00  0.210978E+00
  11.224700  0.227951E+00  0.207379E+00
  11.251910  0.225974E+00  0.200925E+00
  11.279120  0.225254E+00  0.193939E+00
  11.306330  0.225290E+00  0.188635E+00
  11.333550  0.225312E+00  0.184777E+00
  11.360760  0.224705E+00  0.181598E+00
  11.387970  0.223069E+00  0.178530E+00
  11.415180  0.220367E+00  0.175323E+00
  11.442390  0.217530E+00  0.172199E+00
  11.469600  0.215613E+00  0.169540E+00
  11.496810  0.214267E+00  0.167438E+00
  11.524030  0.212911E+00  0.165951E+00
  11.551240  0.211537E+00  0.165085E+00
  11.578450  0.210652E+00  0.164604E+00
  11.605660  0.210783E+00  0.164341E+00
  11.632870  0.212069E+00  0.164182E+00
  11.660080  0.214354E+00  0.164049E+00
  11.687290  0.217138E+00  0.163975E+00
  11.714510  0.219983E+00  0.164153E+00
  11.741720  0.222668E+00  0.165087E+00
  11.768930  0.225026E+00  0.166645E+00
  11.796140  0.227357E+00  0.168171E+00
  11.823350  0.230171E+00  0.169298E+00
  11.850560  0.233289E+00  0.170093E+00
  11.877770  0.236177E+00  0.170920E+00
  11.904990  0.238365E+00  0.172355E+00
  11.932200  0.239652E+00  0.175181E+00
  11.959410  0.240277E+00  0.179855E+00
  11.986620  0.241145E+00  0.185884E+00
  12.013830  0.243055E+00  0.192413E+00
  12.041040  0.246224E+00  0.198901E+00
  12.068250  0.250219E+00  0.204983E+00
  12.095470  0.254260E+00  0.210151E+00
  12.122680  0.257744E+00  0.214135E+00
  12.149890  0.260308E+00  0.217426E+00
  12.177100  0.261141E+00  0.220463E+00
  12.204310  0.259341E+00  0.222693E+00
  12.231520  0.255597E+00  0.223278E+00
  12.258730  0.251678E+00  0.221909E+00
  12.285940  0.249036E+00  0.218783E+00
  12.313160  0.248182E+00  0.214477E+00
  12.340370  0.248993E+00  0.209957E+00
  12.367580  0.251488E+00  0.206542E+00
  12.394790  0.255338E+00  0.205249E+00
  12.422000  0.260092E+00  0.205801E+00
  12.449210  0.265017E+00  0.208397E+00
  12.476420  0.269025E+00  0.213224E+00
  12.503640  0.271517E+00  0.219029E+00
  12.530850  0.271983E+00  0.224162E+00
  12.558060  0.270970E+00  0.228179E+00
  12.585270  0.269955E+00  0.231916E+00
  12.612480  0.269423E+00  0.235954E+00
  12.639690  0.269433E+00  0.240401E+00
  12.666900  0.269740E+00  0.245185E+00
  12.694120  0.269902E+00  0.250049E+00
  12.721330  0.270135E+00  0.254805E+00
  12.748540  0.271136E+00  0.259452E+00
  12.775750  0.272489E+00  0.264097E+00
  12.802960  0.272991E+00  0.269006E+00
  12.830170  0.272061E+00  0.274038E+00
  12.857380  0.270082E+00  0.278458E+00
  12.884600  0.268320E+00  0.281887E+00
  12.911810  0.267923E+00  0.284494E+00
  12.939020  0.269227E+00  0.286930E+00
  12.966230  0.272344E+00  0.289942E+00
  12.993440  0.277374E+00  0.294175E+00
  13.020650  0.284284E+00  0.299976E+00
  13.047860  0.292525E+00  0.306811E+00
  13.075080  0.300675E+00  0.314301E+00
  13.102290  0.307714E+00  0.322828E+00
  13.129500  0.313117E+00  0.332776E+00
  13.156710  0.316384E+00  0.343807E+00
  13.183920  0.318160E+00  0.355046E+00
  13.211130  0.319793E+00  0.365934E+00
  13.238340  0.321158E+00  0.375917E+00
  13.265560  0.320996E+00  0.383637E+00
  13.292770  0.319352E+00  0.387950E+00
  13.319980  0.317957E+00  0.390191E+00
  13.347190  0.318182E+00  0.392174E+00
  13.374400  0.319627E+00  0.394197E+00
  13.401610  0.321661E+00  0.396188E+00
  13.428820  0.324145E+00  0.398044E+00
  13.456030  0.326183E+00  0.399432E+00
  13.483250  0.326491E+00  0.399866E+00
  13.510460  0.325417E+00  0.399361E+00
  13.537670  0.323543E+00  0.398399E+00
  13.564880  0.321871E+00  0.396812E+00
  13.592090  0.320970E+00  0.393623E+00
  13.619300  0.319436E+00  0.388243E+00
  13.646510  0.316610E+00  0.380869E+00
  13.673730  0.313141E+00  0.371802E+00
  13.700940  0.309921E+00  0.362306E+00
  13.728150  0.307610E+00  0.353440E+00
  13.755360  0.305881E+00  0.344788E+00
  13.782570  0.304082E+00  0.335431E+00
  13.809780  0.301821E+00  0.323542E+00
  13.836990  0.298318E+00  0.307695E+00
  13.864210  0.292404E+00  0.287787E+00
  13.891420  0.284720E+00  0.264375E+00
  13.918630  0.279277E+00  0.238564E+00
  13.945840  0.277827E+00  0.214026E+00
  13.973050  0.279032E+00  0.195332E+00
  14.000260  0.281506E+00  0.184616E+00
  14.027470  0.283982E+00  0.180147E+00
  14.054690  0.285756E+00  0.179461E+00
  14.081900  0.287550E+00  0.180956E+00
  14.109110  0.289778E+00  0.184070E+00
  14.136320  0.291777E+00  0.188672E+00
  14.163530  0.292835E+00  0.194592E+00
  14.190740  0.292697E+00  0.201386E+00
  14.217950  0.292158E+00  0.208427E+00
  14.245170  0.292455E+00  0.215815E+00
  14.272380  0.293891E+00  0.223883E+00
  14.299590  0.296020E+00  0.232438E+00
  14.326800  0.298390E+00  0.241139E+00
  14.354010  0.300849E+00  0.249429E+00
  14.381220  0.303181E+00  0.256581E+00
  14.408430  0.304728E+00  0.262051E+00
  14.435650  0.304788E+00  0.265278E+00
  14.462860  0.303545E+00  0.266296E+00
  14.490070  0.302013E+00  0.266098E+00
  14.517280  0.301268E+00  0.265748E+00
  14.544490  0.301928E+00  0.265664E+00
  14.571700  0.303851E+00  0.265965E+00
  14.598910  0.306933E+00  0.266746E+00
  14.626120  0.311488E+00  0.267870E+00
  14.653340  0.316936E+00  0.269033E+00
  14.680550  0.321984E+00  0.269656E+00
  14.707760  0.326487E+00  0.268914E+00
  14.734970  0.329918E+00  0.266387E+00
  14.762180  0.329488E+00  0.262721E+00
  14.789390  0.325593E+00  0.259579E+00
  14.816600  0.320371E+00  0.257811E+00
  14.843820  0.314700E+00  0.256786E+00
  14.871030  0.310218E+00  0.255940E+00
  14.898240  0.307831E+00  0.255408E+00
  14.925450  0.307696E+00  0.255424E+00
  14.952660  0.309513E+00  0.256423E+00
  14.979870  0.312282E+00  0.258544E+00
  15.007080  0.315296E+00  0.261194E+00
  15.034300  0.318169E+00  0.263348E+00
  15.061510  0.319908E+00  0.264165E+00
  15.088720  0.319454E+00  0.263318E+00
  15.115930  0.317244E+00  0.260771E+00
  15.143140  0.314968E+00  0.256529E+00
  15.170350  0.313528E+00  0.250804E+00
  15.197560  0.312955E+00  0.243597E+00
  15.224780  0.312881E+00  0.235408E+00
  15.251990  0.313068E+00  0.227674E+00
  15.279200  0.313821E+00  0.221585E+00
  15.306410  0.315408E+00  0.217472E+00
  15.333620  0.317879E+00  0.215016E+00
  15.360830  0.321136E+00  0.213184E+00
  15.388040  0.324925E+00  0.210967E+00
  15.415260  0.328725E+00  0.208287E+00
  15.442470  0.331851E+00  0.206289E+00
  15.469680  0.334031E+00  0.206366E+00
  15.496890  0.335738E+00  0.209043E+00
  15.524100  0.337825E+00  0.213602E+00
  15.551310  0.340408E+00  0.219238E+00
  15.578520  0.343093E+00  0.225624E+00
  15.605740  0.345337E+00  0.232270E+00
  15.632950  0.347094E+00  0.238092E+00
  15.660160  0.348869E+00  0.242185E+00
  15.687370  0.350792E+00  0.245319E+00
  15.714580  0.352475E+00  0.248391E+00
  15.741790  0.353234E+00  0.251015E+00
  15.769000  0.353155E+00  0.252870E+00
  15.796210  0.353089E+00  0.254087E+00
  15.823430  0.353515E+00  0.255038E+00
  15.850640  0.354416E+00  0.256420E+00
  15.877850  0.355560E+00  0.258291E+00
  15.905060  0.356944E+00  0.259914E+00
  15.932270  0.358779E+00  0.260504E+00
  15.959480  0.360978E+00  0.260027E+00
  15.986690  0.363450E+00  0.259775E+00
  16.013910  0.366200E+00  0.261024E+00
  16.041120  0.368969E+00  0.263619E+00
  16.068330  0.371590E+00  0.266475E+00
  16.095540  0.374009E+00  0.269047E+00
  16.122750  0.376228E+00  0.272055E+00
  16.149960  0.378511E+00  0.276056E+00
  16.177170  0.381244E+00  0.280697E+00
  16.204390  0.384236E+00  0.285240E+00
  16.231600  0.387142E+00  0.288541E+00
  16.258810  0.389718E+00  0.289980E+00
  16.286020  0.391865E+00  0.290390E+00
  16.313230  0.394205E+00  0.291468E+00
  16.340440  0.397024E+00  0.294339E+00
  16.367650  0.399658E+00  0.298751E+00
  16.394870  0.401475E+00  0.303851E+00
  16.422080  0.402362E+00  0.308973E+00
  16.449290  0.402678E+00  0.313573E+00
  16.476500  0.403320E+00  0.317363E+00
  16.503710  0.404562E+00  0.320190E+00
  16.530920  0.405956E+00  0.321772E+00
  16.558130  0.407112E+00  0.322981E+00
  16.585350  0.407680E+00  0.324796E+00
  16.612560  0.408232E+00  0.326817E+00
  16.639770  0.409595E+00  0.328355E+00
  16.666980  0.411529E+00  0.329297E+00
  16.694190  0.413613E+00  0.329796E+00
  16.721400  0.415797E+00  0.330000E+00
  16.748610  0.418315E+00  0.330097E+00
  16.775830  0.421349E+00  0.330558E+00
  16.803040  0.424896E+00  0.332185E+00
  16.830250  0.429090E+00  0.335463E+00
  16.857460  0.434025E+00  0.340196E+00
  16.884670  0.439800E+00  0.346006E+00
  16.911880  0.446125E+00  0.352430E+00
  16.939090  0.453064E+00  0.359269E+00
  16.966300  0.461312E+00  0.366696E+00
  16.993520  0.470419E+00  0.374705E+00
  17.020730  0.479098E+00  0.382979E+00
  17.047940  0.486000E+00  0.391092E+00
  17.075150  0.489305E+00  0.398235E+00
  17.102360  0.487657E+00  0.402591E+00
  17.129570  0.483767E+00  0.403887E+00
  17.156780  0.481642E+00  0.404620E+00
  17.184000  0.481430E+00  0.405712E+00
  17.211210  0.482524E+00  0.407167E+00
  17.238420  0.484692E+00  0.408852E+00
  17.265630  0.487526E+00  0.410717E+00
  17.292840  0.490138E+00  0.413025E+00
  17.320050  0.491453E+00  0.416580E+00
  17.347260  0.490572E+00  0.422239E+00
  17.374480  0.487450E+00  0.429878E+00
  17.401690  0.483657E+00  0.438769E+00
  17.428900  0.481503E+00  0.448024E+00
  17.456110  0.481683E+00  0.456190E+00
  17.483320  0.483510E+00  0.462585E+00
  17.510530  0.486203E+00  0.468033E+00
  17.537740  0.489549E+00  0.472364E+00
  17.564960  0.493597E+00  0.473949E+00
  17.592170  0.498289E+00  0.471745E+00
  17.619380  0.503249E+00  0.466571E+00
  17.646590  0.508201E+00  0.460094E+00
  17.673800  0.513384E+00  0.454056E+00
  17.701010  0.518654E+00  0.449917E+00
  17.728220  0.523541E+00  0.447889E+00
  17.755440  0.527516E+00  0.446882E+00
  17.782650  0.529912E+00  0.447657E+00
  17.809860  0.531492E+00  0.451080E+00
  17.837070  0.534011E+00  0.457781E+00
  17.864280  0.538137E+00  0.467286E+00
  17.891490  0.543511E+00  0.478274E+00
  17.918700  0.549698E+00  0.489470E+00
  17.945920  0.556875E+00  0.500554E+00
  17.973130  0.565039E+00  0.511748E+00
  18.000340  0.573588E+00  0.522986E+00
  18.027550  0.581858E+00  0.533691E+00
  18.054760  0.589284E+00  0.542804E+00
  18.081970  0.595412E+00  0.550369E+00
  18.109180  0.600664E+00  0.560019E+00
  18.136390  0.605333E+00  0.574720E+00
  18.163610  0.607411E+00  0.592418E+00
  18.190820  0.605352E+00  0.610698E+00
  18.218030  0.601337E+00  0.628649E+00
  18.245240  0.597660E+00  0.645564E+00
  18.272450  0.593489E+00  0.661283E+00
  18.299660  0.588339E+00  0.677540E+00
  18.326870  0.582931E+00  0.696176E+00
  18.354090  0.579324E+00  0.717113E+00
  18.381300  0.578512E+00  0.739094E+00
  18.408510  0.579723E+00  0.758784E+00
  18.435720  0.581981E+00  0.772044E+00
  18.462930  0.584215E+00  0.779441E+00
  18.490140  0.586053E+00  0.785472E+00
  18.517350  0.588003E+00  0.792665E+00
  18.544570  0.590583E+00  0.800310E+00
  18.571780  0.593865E+00  0.805138E+00
  18.598990  0.597924E+00  0.806665E+00
  18.626200  0.602763E+00  0.807528E+00
  18.653410  0.608063E+00  0.808810E+00
  18.680620  0.613628E+00  0.810481E+00
  18.707830  0.619665E+00  0.812043E+00
  18.735050  0.626637E+00  0.812025E+00
  18.762260  0.634460E+00  0.807566E+00
  18.789470  0.642546E+00  0.798672E+00
  18.816680  0.651139E+00  0.789137E+00
  18.843890  0.660716E+00  0.782391E+00
  18.871100  0.671199E+00  0.779610E+00
  18.898310  0.682333E+00  0.779030E+00
  18.925530  0.694079E+00  0.779117E+00
  18.952740  0.706149E+00  0.779845E+00
  18.979950  0.717738E+00  0.780721E+00
  19.007160  0.728299E+00  0.780787E+00
  19.034370  0.737642E+00  0.779175E+00
  19.061580  0.745235E+00  0.776042E+00
  19.088790  0.750337E+00  0.771962E+00
  19.116010  0.753128E+00  0.767464E+00
  19.143220  0.754852E+00  0.762837E+00
  19.170430  0.756835E+00  0.757608E+00
  19.197640  0.759331E+00  0.751437E+00
  19.224850  0.762541E+00  0.745221E+00
  19.252060  0.766742E+00  0.739832E+00
  19.279270  0.771668E+00  0.735912E+00
  19.306480  0.777304E+00  0.733732E+00
  19.333700  0.783383E+00  0.733441E+00
  19.360910  0.789426E+00  0.735032E+00
  19.388120  0.795763E+00  0.737712E+00
  19.415330  0.802890E+00  0.740503E+00
  19.442540  0.810582E+00  0.743365E+00
  19.469750  0.818180E+00  0.747122E+00
  19.496960  0.825069E+00  0.751924E+00
  19.524180  0.831479E+00  0.757593E+00
  19.551390  0.838206E+00  0.764358E+00
  19.578600  0.846384E+00  0.772749E+00
  19.605810  0.856684E+00  0.782989E+00
  19.633020  0.868534E+00  0.795169E+00
  19.660230  0.881088E+00  0.809524E+00
  19.687440  0.894252E+00  0.825746E+00
  19.714660  0.908437E+00  0.842831E+00
  19.741870  0.923993E+00  0.860271E+00
  19.769080  0.941058E+00  0.878211E+00
  19.796290  0.959465E+00  0.896997E+00
  19.823500  0.979099E+00  0.916822E+00
  19.850710  0.999913E+00  0.937235E+00
  19.877920  0.102193E+01  0.957196E+00
  19.905140  0.104531E+01  0.976328E+00
  19.932350  0.107016E+01  0.995255E+00
  19.959560  0.109671E+01  0.101455E+01
  19.986770  0.112534E+01  0.103481E+01
  20.013980  0.115594E+01  0.105644E+01
  20.041190  0.118758E+01  0.107859E+01
  20.068400  0.121882E+01  0.109963E+01
  20.095620  0.124773E+01  0.111809E+01
  20.122830  0.127382E+01  0.113272E+01
  20.150040  0.129878E+01  0.114349E+01
  20.177250  0.132338E+01  0.115238E+01
  20.204460  0.134672E+01  0.116175E+01
  20.231670  0.136945E+01  0.117197E+01
  20.258880  0.139393E+01  0.118157E+01
  20.286100  0.142079E+01  0.118825E+01
  20.313310  0.144857E+01  0.119051E+01
  20.340520  0.147553E+01  0.118970E+01
  20.367730  0.150145E+01  0.118865E+01
  20.394940  0.152676E+01  0.119080E+01
  20.422150  0.155264E+01  0.119886E+01
  20.449360  0.157975E+01  0.121197E+01
  20.476570  0.160734E+01  0.122907E+01
  20.503790  0.163364E+01  0.124992E+01
  20.531000  0.165792E+01  0.127478E+01
  20.558210  0.168230E+01  0.130402E+01
  20.585420  0.170947E+01  0.133714E+01
  20.612630  0.173919E+01  0.137120E+01
  20.639840  0.176982E+01  0.140507E+01
  20.667050  0.180122E+01  0.143981E+01
  20.694270  0.183366E+01  0.147468E+01
  20.721480  0.186625E+01  0.150566E+01
  20.748690  0.189809E+01  0.152674E+01
  20.775900  0.192865E+01  0.153874E+01
  20.803110  0.195753E+01  0.154814E+01
  20.830320  0.198418E+01  0.156031E+01
  20.857530  0.200810E+01  0.158037E+01
  20.884750  0.202960E+01  0.160870E+01
  20.911960  0.204932E+01  0.164178E+01
  20.939170  0.206798E+01  0.167695E+01
  20.966380  0.208666E+01  0.171485E+01
  20.993590  0.210674E+01  0.175694E+01
  21.020800  0.212903E+01  0.180428E+01
  21.048010  0.215268E+01  0.185635E+01
  21.075230  0.217649E+01  0.191150E+01
  21.102440  0.220074E+01  0.196902E+01
  21.129650  0.222748E+01  0.202911E+01
  21.156860  0.225730E+01  0.209085E+01
  21.184070  0.228704E+01  0.215043E+01
  21.211280  0.231236E+01  0.220227E+01
  21.238490  0.233103E+01  0.224294E+01
  21.265710  0.234448E+01  0.227615E+01
  21.292920  0.235698E+01  0.230791E+01
  21.320130  0.237518E+01  0.234279E+01
  21.347340  0.240178E+01  0.238112E+01
  21.374550  0.243484E+01  0.241831E+01
  21.401760  0.247266E+01  0.245045E+01
  21.428970  0.251302E+01  0.247572E+01
  21.456190  0.255327E+01  0.249655E+01
  21.483400  0.259202E+01  0.251649E+01
  21.510610  0.263091E+01  0.253708E+01
  21.537820  0.267230E+01  0.255753E+01
  21.565030  0.271483E+01  0.257790E+01
  21.592240  0.275399E+01  0.260544E+01
  21.619450  0.278877E+01  0.264148E+01
  21.646660  0.282378E+01  0.267761E+01
  21.673880  0.286666E+01  0.270866E+01
  21.701090  0.291912E+01  0.273276E+01
  21.728300  0.297520E+01  0.274781E+01
  21.755510  0.303002E+01  0.275342E+01
  21.782720  0.308289E+01  0.274986E+01
  21.809930  0.314090E+01  0.274290E+01
  21.837140  0.321579E+01  0.274269E+01
  21.864360  0.331385E+01  0.275399E+01
  21.891570  0.342981E+01  0.277774E+01
  21.918780  0.354997E+01  0.281257E+01
  21.945990  0.366113E+01  0.285183E+01
  21.973200  0.375429E+01  0.289133E+01
  22.000410  0.382781E+01  0.293458E+01
  22.027620  0.390127E+01  0.299724E+01
  22.054840  0.399337E+01  0.309998E+01
  22.082050  0.409352E+01  0.324056E+01
  22.109260  0.418284E+01  0.341009E+01
  22.136470  0.425085E+01  0.360596E+01
  22.163680  0.430092E+01  0.382131E+01
  22.190890  0.434743E+01  0.404857E+01
  22.218100  0.439483E+01  0.428052E+01
  22.245320  0.444112E+01  0.451640E+01
  22.272530  0.448926E+01  0.476286E+01
  22.299740  0.453913E+01  0.501937E+01
  22.326950  0.458427E+01  0.527549E+01
  22.354160  0.462730E+01  0.552810E+01
  22.381370  0.467604E+01  0.577980E+01
  22.408580  0.473542E+01  0.602256E+01
  22.435800  0.480953E+01  0.623813E+01
  22.463010  0.489862E+01  0.640930E+01
  22.490220  0.499947E+01  0.654578E+01
  22.517430  0.510873E+01  0.667651E+01
  22.544640  0.522400E+01  0.681954E+01
  22.571850  0.533961E+01  0.698743E+01
  22.599060  0.545807E+01  0.718004E+01
  22.626280  0.559334E+01  0.738336E+01
  22.653490  0.575700E+01  0.757405E+01
  22.680700  0.595090E+01  0.773628E+01
  22.707910  0.617606E+01  0.786458E+01
  22.735120  0.642460E+01  0.796405E+01
  22.762330  0.668906E+01  0.805757E+01
  22.789540  0.696422E+01  0.818068E+01
  22.816750  0.724575E+01  0.835636E+01
  22.843970  0.752919E+01  0.858242E+01
  22.871180  0.780304E+01  0.884171E+01
  22.898390  0.804596E+01  0.912131E+01
  22.925600  0.824536E+01  0.941933E+01
  22.952810  0.841395E+01  0.973023E+01
  22.980020  0.857467E+01  0.100513E+02
  23.007230  0.873726E+01  0.103836E+02
  23.034450  0.889982E+01  0.107072E+02
  23.061660  0.907197E+01  0.109974E+02
  23.088870  0.927706E+01  0.112529E+02
  23.116080  0.950382E+01  0.114800E+02
  23.143290  0.969825E+01  0.116784E+02
  23.170500  0.984020E+01  0.118492E+02
  23.197710  0.994471E+01  0.119870E+02
  23.224930  0.100169E+02  0.120589E+02
  23.252140  0.100382E+02  0.120224E+02
  23.279350  0.999275E+01  0.118654E+02
  23.306560  0.988319E+01  0.116017E+02
  23.333770  0.972134E+01  0.112457E+02
  23.360980  0.951545E+01  0.108153E+02
  23.388190  0.928138E+01  0.103368E+02
  23.415410  0.902495E+01  0.984131E+01
  23.442620  0.874582E+01  0.935342E+01
  23.469830  0.845529E+01  0.889163E+01
  23.497040  0.816775E+01  0.845030E+01
  23.524250  0.789996E+01  0.802465E+01
  23.551460  0.765665E+01  0.763324E+01
  23.578670  0.743114E+01  0.727699E+01
  23.605890  0.722118E+01  0.694398E+01
  23.633100  0.702822E+01  0.661424E+01
  23.660310  0.684720E+01  0.627973E+01
  23.687520  0.668139E+01  0.596480E+01
  23.714730  0.655464E+01  0.569781E+01
  23.741940  0.646624E+01  0.546861E+01
  23.769150  0.638714E+01  0.523802E+01
  23.796370  0.631254E+01  0.499489E+01
  23.823580  0.625360E+01  0.475899E+01
  23.850790  0.623060E+01  0.455657E+01
  23.878000  0.625404E+01  0.439933E+01
  23.905210  0.629231E+01  0.426803E+01
  23.932420  0.631435E+01  0.415546E+01
  23.959630  0.632328E+01  0.407642E+01
  23.986840  0.635276E+01  0.403692E+01
  24.014060  0.638412E+01  0.403700E+01
  24.041270  0.633989E+01  0.408165E+01
  24.068480  0.620678E+01  0.419922E+01
  24.095690  0.601373E+01  0.443468E+01
  24.122900  0.579012E+01  0.471573E+01
  24.150110  0.555588E+01  0.492476E+01
  24.177320  0.531014E+01  0.504612E+01
  24.204540  0.504496E+01  0.507217E+01
  24.231750  0.477614E+01  0.501158E+01
  24.258960  0.453097E+01  0.489818E+01
  24.286170  0.432312E+01  0.475690E+01
  24.313380  0.415528E+01  0.460397E+01
  24.340590  0.403056E+01  0.445417E+01
  24.367800  0.393194E+01  0.430954E+01
  24.395020  0.383355E+01  0.415078E+01
  24.422230  0.373021E+01  0.396951E+01
  24.449440  0.362015E+01  0.378795E+01
  24.476650  0.350575E+01  0.363972E+01
  24.503860  0.339470E+01  0.353503E+01
  24.531070  0.328862E+01  0.346388E+01
  24.558280  0.318244E+01  0.340291E+01
  24.585500  0.307029E+01  0.333344E+01
  24.612710  0.295105E+01  0.325350E+01
  24.639920  0.282773E+01  0.317188E+01
  24.667130  0.270508E+01  0.309920E+01
  24.694340  0.258858E+01  0.303626E+01
  24.721550  0.248073E+01  0.296991E+01
  24.748760  0.238057E+01  0.288924E+01
  24.775980  0.228850E+01  0.279995E+01
  24.803190  0.220703E+01  0.270932E+01
  24.830400  0.213482E+01  0.261616E+01
  24.857610  0.206820E+01  0.251702E+01
  24.884820  0.200688E+01  0.241381E+01
  24.912030  0.195330E+01  0.231782E+01
  24.939240  0.190782E+01  0.223951E+01
  24.966460  0.186606E+01  0.217670E+01
  24.993670  0.182301E+01  0.211729E+01
  25.020880  0.178105E+01  0.205775E+01
  25.048090  0.174331E+01  0.200352E+01
  25.075300  0.170667E+01  0.195583E+01
  25.102510  0.166709E+01  0.191617E+01
  25.129720  0.162142E+01  0.189520E+01
  25.156930  0.156619E+01  0.190154E+01
  25.184150  0.150932E+01  0.193124E+01
  25.211360  0.145418E+01  0.195729E+01
  25.238570  0.139694E+01  0.195743E+01
  25.265780  0.133881E+01  0.193538E+01
  25.292990  0.128436E+01  0.190216E+01
  25.320200  0.123597E+01  0.186102E+01
  25.347410  0.119410E+01  0.181254E+01
  25.374630  0.115893E+01  0.176109E+01
  25.401840  0.113196E+01  0.171216E+01
  25.429050  0.111565E+01  0.166863E+01
  25.456260  0.110969E+01  0.163040E+01
  25.483470  0.111200E+01  0.159616E+01
  25.510680  0.112135E+01  0.156681E+01
  25.537890  0.113348E+01  0.154578E+01
  25.565110  0.114063E+01  0.153203E+01
  25.592320  0.113873E+01  0.151414E+01
  25.619530  0.112650E+01  0.148206E+01
  25.646740  0.110273E+01  0.143471E+01
  25.673950  0.106639E+01  0.137683E+01
  25.701160  0.101721E+01  0.131608E+01
  25.728370  0.963446E+00  0.125905E+01
  25.755590  0.914338E+00  0.120658E+01
  25.782800  0.870361E+00  0.115238E+01
  25.810010  0.829430E+00  0.108129E+01
  25.837220  0.792458E+00  0.976958E+00
  25.864430  0.755650E+00  0.866259E+00
  25.891640  0.713283E+00  0.777253E+00
  25.918850  0.666956E+00  0.707118E+00
  25.946070  0.621722E+00  0.648933E+00
  25.973280  0.580468E+00  0.598222E+00
  26.000490  0.545456E+00  0.553155E+00
  26.027700  0.518207E+00  0.514383E+00
  26.054910  0.498188E+00  0.481952E+00
  26.082120  0.482494E+00  0.454473E+00
  26.109330  0.468069E+00  0.429463E+00
  26.136550  0.453530E+00  0.406095E+00
  26.163760  0.437650E+00  0.385792E+00
  26.190970  0.419580E+00  0.370249E+00
  26.218180  0.400918E+00  0.361601E+00
  26.245390  0.385556E+00  0.361519E+00
  26.272600  0.374920E+00  0.366477E+00
  26.299810  0.366920E+00  0.368577E+00
  26.327020  0.358993E+00  0.363592E+00
  26.354240  0.350306E+00  0.353851E+00
  26.381450  0.340382E+00  0.341575E+00
  26.408660  0.327954E+00  0.327217E+00
  26.435870  0.312637E+00  0.312775E+00
  26.463080  0.295402E+00  0.298640E+00
  26.490290  0.276424E+00  0.283038E+00
  26.517500  0.257296E+00  0.265269E+00
  26.544720  0.240446E+00  0.246751E+00
  26.571930  0.226769E+00  0.229808E+00
  26.599140  0.215677E+00  0.215653E+00
  26.626350  0.206676E+00  0.204276E+00
  26.653560  0.199303E+00  0.195168E+00
  26.680770  0.192623E+00  0.187739E+00
  26.707980  0.186124E+00  0.181451E+00
  26.735200  0.179873E+00  0.175862E+00
  26.762410  0.173970E+00  0.170630E+00
  26.789620  0.168395E+00  0.165186E+00
  26.816830  0.162768E+00  0.159469E+00
  26.844040  0.156716E+00  0.154063E+00
  26.871250  0.150374E+00  0.149165E+00
  26.898460  0.144437E+00  0.144632E+00
  26.925680  0.139723E+00  0.140307E+00
  26.952890  0.136517E+00  0.136120E+00
  26.980100  0.134425E+00  0.132120E+00
  27.007310  0.132669E+00  0.128405E+00
  27.034520  0.130646E+00  0.124952E+00
  27.061730  0.128323E+00  0.121717E+00
  27.088940  0.125953E+00  0.118687E+00
  27.116160  0.123805E+00  0.115843E+00
  27.143370  0.122012E+00  0.113159E+00
  27.170580  0.120493E+00  0.110692E+00
  27.197790  0.119206E+00  0.108506E+00
  27.225000  0.118067E+00  0.106562E+00
  27.252210  0.116760E+00  0.104793E+00
  27.279420  0.115094E+00  0.103045E+00
  27.306640  0.113244E+00  0.101222E+00
  27.333850  0.111482E+00  0.993697E-01
  27.361060  0.110062E+00  0.976217E-01
  27.388270  0.109098E+00  0.960623E-01
  27.415480  0.108508E+00  0.947192E-01
  27.442690  0.108026E+00  0.935959E-01
  27.469900  0.107294E+00  0.926832E-01
  27.497110  0.106173E+00  0.919867E-01
  27.524330  0.104801E+00  0.915120E-01
  27.551540  0.103304E+00  0.912006E-01
  27.578750  0.101666E+00  0.909614E-01
  27.605960  0.998552E-01  0.907492E-01
  27.633170  0.979597E-01  0.905725E-01
  27.660380  0.960841E-01  0.904463E-01
  27.687590  0.942673E-01  0.903617E-01
  27.714810  0.925285E-01  0.902847E-01
  27.742020  0.908808E-01  0.901526E-01
  27.769230  0.893111E-01  0.898982E-01
  27.796440  0.877936E-01  0.895428E-01
  27.823650  0.862948E-01  0.891255E-01
  27.850860  0.848001E-01  0.886655E-01
  27.878070  0.833315E-01  0.881793E-01
  27.905290  0.819238E-01  0.876894E-01
  27.932500  0.805809E-01  0.872035E-01
  27.959710  0.792767E-01  0.867114E-01
  27.986920  0.780012E-01  0.862286E-01
  28.014130  0.767839E-01  0.857896E-01
  28.041340  0.756668E-01  0.854029E-01
  28.068550  0.746596E-01  0.850319E-01
  28.095770  0.737291E-01  0.846385E-01
  28.122980  0.728655E-01  0.842275E-01
  28.150190  0.720804E-01  0.838354E-01
  28.177400  0.713926E-01  0.834850E-01
  28.204610  0.708017E-01  0.831465E-01
  28.231820  0.702730E-01  0.827132E-01
  28.259030  0.697768E-01  0.821236E-01
  28.286250  0.692983E-01  0.813994E-01
  28.313460  0.688374E-01  0.805093E-01
  28.340670  0.683784E-01  0.793656E-01
  28.367880  0.678794E-01  0.780571E-01
  28.395090  0.673290E-01  0.769088E-01
  28.422300  0.667310E-01  0.760867E-01
  28.449510  0.660887E-01  0.755820E-01
  28.476730  0.654101E-01  0.753214E-01
  28.503940  0.646900E-01  0.750985E-01
  28.531150  0.639169E-01  0.742190E-01
  28.558360  0.630962E-01  0.715488E-01
  28.585570  0.622429E-01  0.673554E-01
  28.612780  0.614044E-01  0.631163E-01
  28.639990  0.606246E-01  0.594873E-01
  28.667200  0.598764E-01  0.564968E-01
  28.694420  0.590874E-01  0.540462E-01
  28.721630  0.582164E-01  0.520911E-01
  28.748840  0.573232E-01  0.506362E-01
  28.776050  0.564564E-01  0.495899E-01
  28.803260  0.555632E-01  0.487631E-01
  28.830470  0.546764E-01  0.480492E-01
  28.857680  0.538174E-01  0.474063E-01
  28.884900  0.529660E-01  0.467808E-01
  28.912110  0.521819E-01  0.461055E-01
  28.939320  0.515071E-01  0.453519E-01
  28.966530  0.509592E-01  0.445385E-01
  28.993740  0.505886E-01  0.437131E-01
  29.020950  0.505126E-01  0.429360E-01
  29.048160  0.508155E-01  0.422043E-01
  29.075380  0.514210E-01  0.414572E-01
  29.102590  0.521501E-01  0.407246E-01
  29.129800  0.528353E-01  0.400838E-01
  29.157010  0.533356E-01  0.395289E-01
  29.184220  0.536357E-01  0.390169E-01
  29.211430  0.537545E-01  0.385492E-01
  29.238640  0.536213E-01  0.381986E-01
  29.265860  0.532740E-01  0.379760E-01
  29.293070  0.528386E-01  0.377967E-01
  29.320280  0.524012E-01  0.376193E-01
  29.347490  0.519507E-01  0.374353E-01
  29.374700  0.515075E-01  0.372698E-01
  29.401910  0.511351E-01  0.371410E-01
  29.429120  0.508631E-01  0.370389E-01
  29.456340  0.506879E-01  0.369475E-01
  29.483550  0.506045E-01  0.368506E-01
  29.510760  0.505941E-01  0.367744E-01
  29.537970  0.506656E-01  0.367822E-01
  29.565180  0.508271E-01  0.368883E-01
  29.592390  0.510825E-01  0.370208E-01
  29.619600  0.514779E-01  0.371143E-01
  29.646820  0.520660E-01  0.372764E-01
  29.674030  0.528522E-01  0.376497E-01
  29.701240  0.537942E-01  0.382827E-01
  29.728450  0.548757E-01  0.391918E-01
  29.755660  0.560255E-01  0.402634E-01
  29.782870  0.568027E-01  0.411478E-01
  29.810080  0.568552E-01  0.415421E-01
  29.837290  0.564677E-01  0.414662E-01
  29.864510  0.559135E-01  0.411114E-01
  29.891720  0.552237E-01  0.406708E-01
  29.918930  0.542461E-01  0.402308E-01
  29.946140  0.529560E-01  0.398129E-01
  29.973350  0.516472E-01  0.394483E-01
  30.000560  0.505083E-01  0.391407E-01
  30.027770  0.494989E-01  0.388549E-01
  30.054990  0.485975E-01  0.385692E-01
  30.082200  0.478990E-01  0.382811E-01
  30.109410  0.474233E-01  0.380173E-01
  30.136620  0.471302E-01  0.378598E-01
  30.163830  0.469405E-01  0.378044E-01
  30.191040  0.468012E-01  0.377708E-01
  30.218250  0.467066E-01  0.377536E-01
  30.245470  0.465797E-01  0.377983E-01
  30.272680  0.462823E-01  0.379468E-01
  30.299890  0.457546E-01  0.381779E-01
  30.327100  0.450209E-01  0.384042E-01
  30.354310  0.441093E-01  0.385523E-01
  30.381520  0.431237E-01  0.386251E-01
  30.408730  0.422117E-01  0.386652E-01
  30.435950  0.414307E-01  0.387275E-01
  30.463160  0.408095E-01  0.388880E-01
  30.490370  0.403647E-01  0.392342E-01
  30.517580  0.400445E-01  0.398443E-01
  30.544790  0.397884E-01  0.406674E-01
  30.572000  0.395913E-01  0.415303E-01
  30.599210  0.394724E-01  0.423665E-01
  30.626430  0.394458E-01  0.430910E-01
  30.653640  0.394994E-01  0.433612E-01
  30.680850  0.396126E-01  0.428765E-01
  30.708060  0.397977E-01  0.419823E-01
  30.735270  0.400822E-01  0.411170E-01
  30.762480  0.404850E-01  0.403479E-01
  30.789690  0.409690E-01  0.395570E-01
  30.816910  0.414493E-01  0.386368E-01
  30.844120  0.419056E-01  0.375531E-01
  30.871330  0.423339E-01  0.362925E-01
  30.898540  0.426635E-01  0.349555E-01
  30.925750  0.428023E-01  0.337214E-01
  30.952960  0.427208E-01  0.326420E-01
  30.980170  0.424781E-01  0.316922E-01
  31.007380  0.421976E-01  0.308612E-01
  31.034600  0.420023E-01  0.301558E-01
  31.061810  0.419605E-01  0.295730E-01
  31.089020  0.420009E-01  0.290897E-01
  31.116230  0.420091E-01  0.286507E-01
  31.143440  0.419470E-01  0.282096E-01
  31.170650  0.417884E-01  0.277717E-01
  31.197860  0.413730E-01  0.273633E-01
  31.225080  0.404880E-01  0.270030E-01
  31.252290  0.393438E-01  0.267267E-01
  31.279500  0.382518E-01  0.265371E-01
  31.306710  0.372892E-01  0.263881E-01
  31.333920  0.364436E-01  0.262503E-01
  31.361130  0.357185E-01  0.261342E-01
  31.388340  0.350713E-01  0.260437E-01
  31.415560  0.344798E-01  0.259717E-01
  31.442770  0.339415E-01  0.259240E-01
  31.469980  0.334746E-01  0.259606E-01
  31.497190  0.331172E-01  0.261515E-01
  31.524400  0.328865E-01  0.265038E-01
  31.551610  0.327580E-01  0.270068E-01
  31.578820  0.327053E-01  0.276557E-01
  31.606040  0.327097E-01  0.284690E-01
  31.633250  0.327577E-01  0.294857E-01
  31.660460  0.328506E-01  0.307465E-01
  31.687670  0.329956E-01  0.322914E-01
  31.714880  0.332065E-01  0.341414E-01
  31.742090  0.334877E-01  0.362809E-01
  31.769300  0.338148E-01  0.384517E-01
  31.796520  0.341499E-01  0.399981E-01
  31.823730  0.344666E-01  0.405538E-01
  31.850940  0.347645E-01  0.403504E-01
  31.878150  0.350555E-01  0.397971E-01
  31.905360  0.353178E-01  0.392664E-01
  31.932570  0.355035E-01  0.388328E-01
  31.959780  0.355954E-01  0.384295E-01
  31.987000  0.356394E-01  0.379822E-01
  32.014210  0.356765E-01  0.373878E-01
  32.041420  0.357126E-01  0.366107E-01
  32.068630  0.357429E-01  0.357832E-01
  32.095840  0.357935E-01  0.349935E-01
  32.123050  0.359046E-01  0.342556E-01
  32.150260  0.361064E-01  0.336320E-01
  32.177470  0.364417E-01  0.333034E-01
  32.204690  0.369274E-01  0.333837E-01
  32.231900  0.375200E-01  0.337968E-01
  32.259110  0.381341E-01  0.343065E-01
  32.286320  0.387558E-01  0.347191E-01
  32.313530  0.394179E-01  0.350161E-01
  32.340740  0.400877E-01  0.352463E-01
  32.367950  0.406742E-01  0.354255E-01
  32.395170  0.411286E-01  0.355111E-01
  32.422380  0.414754E-01  0.353990E-01
  32.449590  0.418014E-01  0.351013E-01
  32.476800  0.421934E-01  0.347150E-01
  32.504010  0.426879E-01  0.343080E-01
  32.531220  0.432447E-01  0.338975E-01
  32.558430  0.437624E-01  0.335314E-01
  32.585650  0.440729E-01  0.331123E-01
  32.612860  0.441635E-01  0.324387E-01
  32.640070  0.441142E-01  0.315780E-01
  32.667280  0.440576E-01  0.306996E-01
  32.694490  0.441215E-01  0.299475E-01
  32.721700  0.442689E-01  0.294398E-01
  32.748910  0.443464E-01  0.291445E-01
  32.776130  0.442070E-01  0.289484E-01
  32.803340  0.438401E-01  0.288028E-01
  32.830550  0.432777E-01  0.287111E-01
  32.857760  0.426048E-01  0.286646E-01
  32.884970  0.419256E-01  0.286338E-01
  32.912180  0.412577E-01  0.285258E-01
  32.939390  0.405420E-01  0.282184E-01
  32.966610  0.397466E-01  0.277241E-01
  32.993820  0.387853E-01  0.271324E-01
  33.021030  0.375449E-01  0.265140E-01
  33.048240  0.359689E-01  0.258754E-01
  33.075450  0.341364E-01  0.251470E-01
  33.102660  0.322550E-01  0.242868E-01
  33.129870  0.304730E-01  0.233487E-01
  33.157090  0.287727E-01  0.223985E-01
  33.184300  0.271319E-01  0.214644E-01
  33.211510  0.255532E-01  0.205734E-01
  33.238720  0.239846E-01  0.197495E-01
  33.265930  0.223858E-01  0.189902E-01
  33.293140  0.208108E-01  0.182956E-01
  33.320350  0.193087E-01  0.176674E-01
  33.347560  0.179012E-01  0.170813E-01
  33.374780  0.166027E-01  0.165196E-01
  33.401990  0.154164E-01  0.159975E-01
  33.429200  0.143380E-01  0.155136E-01
  33.456410  0.133633E-01  0.150291E-01
  33.483620  0.124970E-01  0.144838E-01
  33.510830  0.117633E-01  0.138450E-01
  33.538040  0.111500E-01  0.131583E-01
  33.565260  0.106269E-01  0.125422E-01
  33.592470  0.101802E-01  0.120418E-01
  33.619680  0.980089E-02  0.116398E-01
  33.646890  0.947462E-02  0.113150E-01
  33.674100  0.919247E-02  0.110457E-01
  33.701310  0.895132E-02  0.108014E-01
  33.728520  0.874180E-02  0.105460E-01
  33.755740  0.855230E-02  0.102610E-01
  33.782950  0.837475E-02  0.998144E-02
  33.810160  0.820608E-02  0.973619E-02
  33.837370  0.804692E-02  0.951656E-02
  33.864580  0.789676E-02  0.930033E-02
  33.891790  0.775282E-02  0.906343E-02
  33.919000  0.761085E-02  0.879549E-02
  33.946220  0.746574E-02  0.849326E-02
  33.973430  0.731109E-02  0.813182E-02
